[
 {
  "variable": "STUDYID",
  "label": "Study Identifier",
  "type": "text",
  "origin": "predecessor",
  "derivation": "DM.STUDYID"
 },
 {
  "variable": "USUBJID",
  "label": "Unique Subject Identifier",
  "type": "text",
  "origin": "predecessor",
  "derivation": "DM.USUBJID"
 },
 {
  "variable": "SUBJID",
  "label": "Subject Identifier",
  "type": "text",
  "origin": "predecessor",
  "derivation": "DM.SUBJID"
 },
 {
  "variable": "SITEID",
  "label": "Site Identifier",
  "type": "text",
  "origin": "predecessor",
  "derivation": "DM.SITEID"
 },
 {
  "variable": "TRT01P",
  "label": "Treatment Group",
  "type": "text",
  "origin": "predecessor",
  "derivation": "DM.ARM"
 },
 {
  "variable": "TRT01PN",
  "label": "Treatment Group Number",
  "type": "integer",
  "origin": "predecessor",
  "derivation": "DM.ARMNRS"
 },
 {
  "variable": "TRT01A",
  "label": "Actual Treatment Group",
  "type": "text",
  "origin": "predecessor",
  "derivation": "DM.ACTARM"
 },
 {
  "variable": "TRT01AN",
  "label": "Actual Treatment Group Number",
  "type": "integer",
  "origin": "predecessor",
  "derivation": "DM.ACTARMUD"
 },
 {
  "variable": "ARM",
  "label": "Assigned Arm",
  "type": "text",
  "origin": "predecessor",
  "derivation": "DM.ARM"
 },
 {
  "variable": "ACTARM",
  "label": "Actual Arm",
  "type": "text",
  "origin": "predecessor",
  "derivation": "DM.ACTARM"
 },
 {
  "variable": "TRTSDT",
  "label": "Treatment Start Date",
  "type": "date",
  "origin": "predecessor",
  "derivation": "EX.EXSTDTC"
 },
 {
  "variable": "TRTEDT",
  "label": "Treatment End Date",
  "type": "date",
  "origin": "predecessor",
  "derivation": "EX.EXENDTC"
 },
 {
  "variable": "TRTDURD",
  "label": "Treatment Duration",
  "type": "integer",
  "origin": "derived",
  "derivation": "TRTEDT - TRTSDT"
 },
 {
  "variable": "AGE",
  "label": "Age",
  "type": "integer",
  "origin": "predecessor",
  "derivation": "DM.AGE"
 },
 {
  "variable": "AGEGR1",
  "label": "Age Group 1",
  "type": "text",
  "origin": "derived",
  "derivation": "IF AGE < 18 THEN 'Pediatric' ELSE IF AGE >= 65 THEN 'Geriatric' ELSE 'Adult'"
 },
 {
  "variable": "AGEGR1N",
  "label": "Age Group 1 Number",
  "type": "integer",
  "origin": "derived",
  "derivation": "IF AGE < 18 THEN 1 ELSE IF AGE >= 65 THEN 3 ELSE 2"
 },
 {
  "variable": "AGEGR2",
  "label": "Age Group 2",
  "type": "text",
  "origin": "derived",
  "derivation": "IF AGE < 18 THEN 'Pediatric' ELSE IF AGE < 65 THEN 'Adult' ELSE 'Geriatric'"
 },
 {
  "variable": "AGEGR2N",
  "label": "Age Group 2 Number",
  "type": "integer",
  "origin": "derived",
  "derivation": "IF AGE < 18 THEN 1 ELSE IF AGE < 65 THEN 2 ELSE 3"
 },
 {
  "variable": "AGEU",
  "label": "Age Unit",
  "type": "text",
  "origin": "predecessor",
  "derivation": "DM.AGEU"
 },
 {
  "variable": "SEX",
  "label": "Sex",
  "type": "text",
  "origin": "predecessor",
  "derivation": "DM.SEX"
 },
 {
  "variable": "RACE",
  "label": "Race",
  "type": "text",
  "origin": "predecessor",
  "derivation": "DM.RACE"
 },
 {
  "variable": "RACEN",
  "label": "Race Number",
  "type": "integer",
  "origin": "derived",
  "derivation": "IF RACE = 'White' THEN 1 ELSE IF RACE = 'Black or African American' THEN 2 ELSE IF RACE = 'Asian' THEN 3 ELSE IF RACE = 'Other' THEN 4 ELSE 9"
 },
 {
  "variable": "ETHNIC",
  "label": "Ethnic Origin",
  "type": "text",
  "origin": "predecessor",
  "derivation": "DM.ETHNIC"
 },
 {
  "variable": "SAFFL",
  "label": "Safety Analysis Set Flag",
  "type": "text",
  "origin": "assigned",
  "derivation": "Y"
 },
 {
  "variable": "ITTFL",
  "label": "Intent-to-Treat Analysis Set Flag",
  "type": "text",
  "origin": "assigned",
  "derivation": "Y"
 },
 {
  "variable": "EFFFL",
  "label": "Efficacy Analysis Set Flag",
  "type": "text",
  "origin": "assigned",
  "derivation": "Y"
 },
 {
  "variable": "COMPLFL",
  "label": "Completer Flag",
  "type": "text",
  "origin": "derived",
  "derivation": "IF DISCONFL = 'N' THEN 'Y' ELSE 'N'"
 },
 {
  "variable": "DISCONFL",
  "label": "Discontinuation Flag",
  "type": "text",
  "origin": "derived",
  "derivation": "IF AE.AEENDTC IS NOT NULL THEN 'Y' ELSE 'N'"
 },
 {
  "variable": "DTHFL",
  "label": "Death Flag",
  "type": "text",
  "origin": "predecessor",
  "derivation": "DM.DTHFL"
 },
 {
  "variable": "EOSSTT",
  "label": "End of Study Status",
  "type": "text",
  "origin": "derived",
  "derivation": "IF DISCONFL = 'Y' THEN 'Discontinued' ELSE IF DTHFL = 'Y' THEN 'Death' ELSE 'Completed'"
 },
 {
  "variable": "DCDECOD",
  "label": "Discontinuation Reason",
  "type": "text",
  "origin": "predecessor",
  "derivation": "AE.AEDECOD"
 },
 {
  "variable": "DCSREAS",
  "label": "Discontinuation Reason",
  "type": "text",
  "origin": "predecessor",
  "derivation": "AE.AETERM"
 },
 {
  "variable": "RFSTDTC",
  "label": "Randomization Date",
  "type": "date",
  "origin": "predecessor",
  "derivation": "DM.RFSTDTC"
 },
 {
  "variable": "RFENDTC",
  "label": "Randomization End Date",
  "type": "date",
  "origin": "predecessor",
  "derivation": "DM.RFENDTC"
 },
 {
  "variable": "BRTHDTC",
  "label": "Birth Date",
  "type": "date",
  "origin": "predecessor",
  "derivation": "DM.BRTHDTC"
 }
]