[
 {
  "variable": "STUDYID",
  "label": "Study Identifier",
  "type": "text",
  "origin": "predecessor",
  "derivation": "DM.STUDYID"
 },
 {
  "variable": "USUBJID",
  "label": "Unique Subject Identifier",
  "type": "text",
  "origin": "predecessor",
  "derivation": "DM.USUBJID"
 },
 {
  "variable": "SUBJID",
  "label": "Subject Identifier",
  "type": "text",
  "origin": "predecessor",
  "derivation": "DM.SUBJID"
 },
 {
  "variable": "SITEID",
  "label": "Site Identifier",
  "type": "text",
  "origin": "predecessor",
  "derivation": "DM.SITEID"
 },
 {
  "variable": "TRT01P",
  "label": "Treatment Arm",
  "type": "text",
  "origin": "predecessor",
  "derivation": "DM.ARM"
 },
 {
  "variable": "TRT01PN",
  "label": "Treatment Arm Numeric",
  "type": "integer",
  "origin": "predecessor",
  "derivation": "DM.ARMNRS"
 },
 {
  "variable": "TRT01A",
  "label": "Actual Treatment Arm",
  "type": "text",
  "origin": "predecessor",
  "derivation": "DM.ACTARM"
 },
 {
  "variable": "TRT01AN",
  "label": "Actual Treatment Arm Numeric",
  "type": "integer",
  "origin": "predecessor",
  "derivation": "DM.ACTARMUD"
 },
 {
  "variable": "ARM",
  "label": "Assigned Arm",
  "type": "text",
  "origin": "predecessor",
  "derivation": "DM.ARM"
 },
 {
  "variable": "ACTARM",
  "label": "Actual Arm",
  "type": "text",
  "origin": "predecessor",
  "derivation": "DM.ACTARM"
 },
 {
  "variable": "TRTSDT",
  "label": "Treatment Start Date",
  "type": "date",
  "origin": "predecessor",
  "derivation": "EX.EXSTDTC"
 },
 {
  "variable": "TRTEDT",
  "label": "Treatment End Date",
  "type": "date",
  "origin": "predecessor",
  "derivation": "EX.EXENDTC"
 },
 {
  "variable": "TRTDURD",
  "label": "Treatment Duration",
  "type": "integer",
  "origin": "derived",
  "derivation": "TRTEDT - TRTSDT"
 },
 {
  "variable": "AGE",
  "label": "Age",
  "type": "integer",
  "origin": "predecessor",
  "derivation": "DM.AGE"
 },
 {
  "variable": "AGEGR1",
  "label": "Age Group 1",
  "type": "text",
  "origin": "derived",
  "derivation": "Derived from AGE"
 },
 {
  "variable": "AGEGR1N",
  "label": "Age Group 1 Numeric",
  "type": "integer",
  "origin": "derived",
  "derivation": "Derived from AGE"
 },
 {
  "variable": "AGEGR2",
  "label": "Age Group 2",
  "type": "text",
  "origin": "derived",
  "derivation": "Derived from AGE"
 },
 {
  "variable": "AGEGR2N",
  "label": "Age Group 2 Numeric",
  "type": "integer",
  "origin": "derived",
  "derivation": "Derived from AGE"
 },
 {
  "variable": "AGEU",
  "label": "Age Unit",
  "type": "text",
  "origin": "predecessor",
  "derivation": "DM.AGEU"
 },
 {
  "variable": "SEX",
  "label": "Sex",
  "type": "text",
  "origin": "predecessor",
  "derivation": "DM.SEX"
 },
 {
  "variable": "RACE",
  "label": "Race",
  "type": "text",
  "origin": "predecessor",
  "derivation": "DM.RACE"
 },
 {
  "variable": "RACEN",
  "label": "Race Numeric",
  "type": "integer",
  "origin": "derived",
  "derivation": "Derived from RACE"
 },
 {
  "variable": "ETHNIC",
  "label": "Ethnic Origin",
  "type": "text",
  "origin": "predecessor",
  "derivation": "DM.ETHNIC"
 },
 {
  "variable": "SAFFL",
  "label": "Safety Analysis Set Flag",
  "type": "text",
  "origin": "assigned",
  "derivation": "Y/N/NA/U"
 },
 {
  "variable": "ITTFL",
  "label": "Intent-to-Treat Analysis Set Flag",
  "type": "text",
  "origin": "assigned",
  "derivation": "Y/N/NA/U"
 },
 {
  "variable": "EFFFL",
  "label": "Efficacy Analysis Set Flag",
  "type": "text",
  "origin": "assigned",
  "derivation": "Y/N/NA/U"
 },
 {
  "variable": "COMPLFL",
  "label": "Completer Flag",
  "type": "text",
  "origin": "assigned",
  "derivation": "Y/N/NA/U"
 },
 {
  "variable": "DISCONFL",
  "label": "Discontinuation Flag",
  "type": "text",
  "origin": "assigned",
  "derivation": "Y/N/NA/U"
 },
 {
  "variable": "DTHFL",
  "label": "Death Flag",
  "type": "text",
  "origin": "predecessor",
  "derivation": "DM.DTHFL"
 },
 {
  "variable": "EOSSTT",
  "label": "End of Study Status",
  "type": "text",
  "origin": "derived",
  "derivation": "Derived from DCDECOD"
 },
 {
  "variable": "DCDECOD",
  "label": "Discontinuation Reason",
  "type": "text",
  "origin": "derived",
  "derivation": "Derived from AE.AEOUT, MH.MHSTAT, etc."
 },
 {
  "variable": "DCSREAS",
  "label": "Discontinuation Reason",
  "type": "text",
  "origin": "derived",
  "derivation": "Derived from AE.AEOUT, MH.MHSTAT, etc."
 },
 {
  "variable": "RFSTDTC",
  "label": "Randomization Date",
  "type": "date",
  "origin": "predecessor",
  "derivation": "DM.RFSTDTC"
 },
 {
  "variable": "RFENDTC",
  "label": "Randomization End Date",
  "type": "date",
  "origin": "predecessor",
  "derivation": "DM.RFENDTC"
 },
 {
  "variable": "BRTHDTC",
  "label": "Birth Date",
  "type": "date",
  "origin": "predecessor",
  "derivation": "DM.BRTHDTC"
 }
]